Index, Altitude, kalmanAltitude, kalmanVelocity, kalmanAcceleration, ax, ay, az, islaunch, isApogee1, isApogee2, isApogee3
0,1561.88,1559.52,0.83,-1.15,9.46,-3.6,-2.26,0,0,0,0
1,1561.88,1560.73,1.28,-1.5,9.47,-3.6,-2.25,0,0,0,0
2,1561.88,1561.48,1.83,-1.65,9.46,-3.61,-2.27,0,0,0,0
3,1561.88,1561.87,2,-1.76,9.44,-3.64,-2.28,0,0,0,0
4,1561.88,1562.18,2.03,-1.83,9.44,-3.66,-2.3,0,0,0,0
5,1561.88,1562.39,1.87,-1.9,9.47,-3.63,-2.28,0,0,0,0
6,1561.88,1562.4,1.39,-1.96,9.45,-3.65,-2.28,0,0,0,0
7,1561.88,1562.32,0.84,-2.02,9.46,-3.65,-2.29,0,0,0,0
8,1561.88,1562.43,0.7,-2.04,9.43,-3.64,-2.28,0,0,0,0
9,1561.88,1562.39,0.36,-2.08,9.44,-3.65,-2.3,0,0,0,0
10,1561.88,1562.52,0.3,-2.08,9.44,-3.65,-2.28,0,0,0,0
11,1561.88,1562.56,0.13,-2.09,9.45,-3.65,-2.29,0,0,0,0
12,1561.88,1562.53,-0.12,-2.11,9.45,-3.64,-2.29,0,0,0,0
13,1561.88,1562.41,-0.43,-2.13,9.45,-3.64,-2.29,0,0,0,0
14,1561.88,1562.39,-0.6,-2.13,9.45,-3.64,-2.28,0,0,0,0
15,1561.88,1562.34,-0.78,-2.13,9.44,-3.64,-2.28,0,0,0,0
16,1561.88,1562.23,-1.02,-2.14,9.44,-3.65,-2.29,0,0,0,0
17,1561.88,1562.15,-1.19,-2.14,9.45,-3.64,-2.28,0,0,0,0
18,1561.88,1562.2,-1.23,-2.1,9.45,-3.65,-2.28,0,0,0,0
19,1561.88,1562.09,-1.41,-2.1,9.46,-3.65,-2.28,0,0,0,0
20,1561.88,1561.96,-1.6,-2.1,9.46,-3.65,-2.29,0,0,0,0
21,1561.88,1561.99,-1.62,-2.05,9.45,-3.65,-2.27,0,0,0,0
22,1561.88,1561.87,-1.78,-2.03,9.43,-3.65,-2.27,0,0,0,0
23,1561.88,1561.77,-1.89,-2.01,9.44,-3.67,-2.28,0,0,0,0
24,1561.88,1561.82,-1.88,-1.94,9.45,-3.66,-2.28,0,0,0,0
25,1561.88,1561.72,-1.98,-1.91,9.44,-3.65,-2.29,0,0,0,0
26,1561.88,1561.71,-2,-1.85,9.45,-3.65,-2.28,0,0,0,0
27,1561.88,1561.65,-2.06,-1.81,9.45,-3.67,-2.29,0,0,0,0
28,1561.88,1561.6,-2.09,-1.76,9.45,-3.65,-2.27,0,0,0,0
29,1561.88,1561.53,-2.14,-1.72,9.44,-3.66,-2.28,0,0,0,0
30,1561.88,1561.48,-2.17,-1.67,9.44,-3.66,-2.28,0,0,0,0
31,1561.88,1561.44,-2.18,-1.61,9.44,-3.65,-2.28,0,0,0,0
32,1561.88,1561.44,-2.15,-1.54,9.45,-3.65,-2.28,0,0,0,0
33,1561.88,1561.36,-2.19,-1.5,9.45,-3.66,-2.28,0,0,0,0
34,1561.88,1561.28,-2.22,-1.46,9.44,-3.66,-2.29,0,0,0,0
35,1561.88,1561.23,-2.22,-1.41,9.45,-3.65,-2.3,0,0,0,0
36,1561.88,1561.16,-2.23,-1.37,9.45,-3.67,-2.28,0,0,0,0
37,1561.88,1561.14,-2.2,-1.31,9.44,-3.66,-2.28,0,0,0,0
38,1561.88,1561.12,-2.16,-1.25,9.45,-3.66,-2.29,0,0,0,0
39,1561.88,1561.1,-2.14,-1.2,9.44,-3.66,-2.29,0,0,0,0
40,1561.88,1561.09,-2.09,-1.14,9.44,-3.66,-2.29,0,0,0,0
41,1561.88,1561.04,-2.08,-1.1,9.45,-3.67,-2.29,0,0,0,0
42,1561.88,1561.1,-1.97,-1.03,9.44,-3.67,-2.28,0,0,0,0
43,1561.88,1561.16,-1.88,-0.97,9.45,-3.66,-2.29,0,0,0,0
44,1561.88,1561.18,-1.82,-0.92,9.44,-3.66,-2.28,0,0,0,0
45,1561.88,1561.21,-1.75,-0.87,9.43,-3.67,-2.29,0,0,0,0
46,1561.88,1561.22,-1.7,-0.82,9.43,-3.67,-2.29,0,0,0,0
47,1561.88,1561.24,-1.64,-0.78,9.45,-3.67,-2.3,0,0,0,0
48,1561.88,1561.24,-1.6,-0.75,9.44,-3.66,-2.29,0,0,0,0
49,1561.88,1561.27,-1.54,-0.71,9.44,-3.67,-2.29,0,0,0,0
50,1561.88,1561.29,-1.49,-0.67,9.45,-3.66,-2.28,0,0,0,0
51,1561.88,1561.35,-1.41,-0.63,9.43,-3.67,-2.29,0,0,0,0
52,1561.88,1561.33,-1.39,-0.61,9.44,-3.67,-2.3,0,0,0,0
53,1561.88,1561.32,-1.36,-0.59,9.44,-3.68,-2.29,0,0,0,0
54,1561.88,1561.37,-1.3,-0.55,9.43,-3.68,-2.28,0,0,0,0
55,1561.88,1561.43,-1.23,-0.52,9.44,-3.67,-2.29,1,0,0,1
56,1561.88,1561.45,-1.19,-0.5,9.44,-3.68,-2.29,1,0,0,1
57,1561.88,1561.52,-1.12,-0.46,9.45,-3.67,-2.28,1,0,0,1
58,1561.88,1561.61,-1.03,-0.43,9.44,-3.66,-2.29,1,0,0,1
59,1561.88,1561.6,-1.02,-0.42,9.44,-3.67,-2.29,1,0,0,1
60,1561.88,1561.6,-1,-0.4,9.43,-3.67,-2.29,1,0,0,1
61,1561.88,1561.6,-0.98,-0.39,9.42,-3.68,-2.29,1,0,0,1
62,1561.88,1561.63,-0.94,-0.37,9.43,-3.66,-2.29,1,0,0,1
63,1561.88,1561.62,-0.93,-0.37,9.44,-3.67,-2.29,1,0,0,1
64,1561.88,1561.68,-0.87,-0.34,9.44,-3.67,-2.3,1,0,0,1
65,1561.88,1561.68,-0.86,-0.33,9.43,-3.67,-2.28,1,0,0,1
66,1561.88,1561.67,-0.85,-0.33,9.43,-3.68,-2.3,1,0,0,1
67,1561.88,1561.71,-0.81,-0.31,9.43,-3.68,-2.3,1,0,0,1
68,1561.88,1561.74,-0.78,-0.3,9.42,-3.68,-2.29,1,0,0,1
69,1561.88,1561.75,-0.76,-0.29,9.43,-3.68,-2.28,1,0,0,1
70,1561.88,1561.79,-0.72,-0.28,9.41,-3.69,-2.29,1,0,0,1
71,1561.88,1561.79,-0.71,-0.27,9.42,-3.69,-2.3,1,0,0,1
72,1561.88,1561.81,-0.69,-0.26,9.43,-3.68,-2.3,1,0,0,1
73,1561.88,1561.81,-0.68,-0.26,9.43,-3.68,-2.29,1,0,0,1
74,1561.88,1561.83,-0.66,-0.25,9.42,-3.68,-2.3,1,0,0,1
75,1561.88,1561.85,-0.64,-0.24,9.42,-3.68,-2.3,1,0,0,1
76,1561.88,1561.85,-0.63,-0.24,9.43,-3.69,-2.3,1,0,1,1
77,1561.88,1561.81,-0.65,-0.24,9.45,-3.66,-2.27,1,0,1,1
78,1561.88,1561.78,-0.65,-0.24,9.43,-3.68,-2.3,1,0,1,1
79,1561.88,1561.78,-0.65,-0.24,9.44,-3.68,-2.28,1,0,1,1
80,1561.88,1561.76,-0.65,-0.24,9.44,-3.66,-2.27,1,0,1,1
81,1561.88,1561.72,-0.66,-0.24,9.44,-3.67,-2.28,1,0,1,1
82,1561.88,1561.7,-0.66,-0.23,9.43,-3.67,-2.3,1,0,1,1
83,1561.88,1561.72,-0.64,-0.23,9.43,-3.68,-2.29,1,0,1,1
84,1561.88,1561.67,-0.66,-0.23,9.42,-3.67,-2.28,1,0,1,1
85,1561.88,1561.71,-0.63,-0.22,9.44,-3.68,-2.28,1,0,1,1
86,1561.88,1561.71,-0.62,-0.22,9.43,-3.68,-2.29,1,0,1,1
87,1561.88,1561.76,-0.59,-0.21,9.45,-3.67,-2.28,1,0,1,1
88,1561.88,1561.8,-0.56,-0.2,9.44,-3.67,-2.28,1,0,1,1
89,1561.88,1561.77,-0.57,-0.2,9.44,-3.67,-2.28,1,0,1,1
90,1561.88,1561.82,-0.53,-0.19,9.44,-3.67,-2.28,1,0,1,1
91,1561.88,1561.84,-0.51,-0.18,9.43,-3.67,-2.29,1,0,1,1
92,1561.88,1561.85,-0.5,-0.18,9.43,-3.68,-2.29,1,0,1,1
93,1561.88,1561.87,-0.49,-0.18,9.43,-3.67,-2.28,1,0,1,1
94,1561.88,1561.93,-0.44,-0.17,9.43,-3.67,-2.28,1,0,1,1
95,1561.88,1561.98,-0.41,-0.16,9.44,-3.67,-2.28,1,0,1,1
96,1561.88,1562.01,-0.39,-0.15,9.45,-3.66,-2.28,1,0,1,1
97,1561.88,1562.06,-0.37,-0.15,9.45,-3.67,-2.27,1,0,1,1
98,1561.88,1562.07,-0.36,-0.14,9.44,-3.67,-2.28,1,0,1,1
99,1561.88,1562.09,-0.35,-0.14,9.43,-3.66,-2.28,1,0,1,1
100,1561.88,1562.1,-0.34,-0.14,9.44,-3.67,-2.29,1,0,1,1
101,1561.88,1562.11,-0.34,-0.14,9.43,-3.69,-2.29,1,0,1,1
102,1561.88,1562.1,-0.35,-0.14,9.44,-3.67,-2.29,1,0,1,1
103,1561.88,1562.08,-0.35,-0.15,9.43,-3.68,-2.28,1,0,1,1
104,1561.88,1562.06,-0.37,-0.15,9.44,-3.67,-2.28,1,0,1,1
105,1561.88,1562.07,-0.36,-0.15,9.44,-3.68,-2.28,1,0,1,1
106,1561.88,1562.03,-0.39,-0.16,9.43,-3.67,-2.28,1,0,1,1
107,1561.88,1562.02,-0.39,-0.16,9.44,-3.67,-2.28,1,0,1,1
108,1561.88,1562,-0.4,-0.16,9.43,-3.66,-2.27,1,0,1,1
109,1561.88,1562,-0.4,-0.16,9.43,-3.68,-2.29,1,0,1,1
110,1561.88,1562.01,-0.4,-0.16,9.43,-3.66,-2.28,1,0,1,1
111,1561.88,1562.03,-0.38,-0.16,9.43,-3.68,-2.29,1,0,1,1
112,1561.88,1562.06,-0.37,-0.16,9.44,-3.68,-2.28,1,0,1,1
113,1561.88,1562.05,-0.37,-0.16,9.43,-3.68,-2.28,1,0,1,1
114,1561.88,1562.07,-0.36,-0.15,9.44,-3.67,-2.28,1,0,1,1
115,1561.88,1562.09,-0.35,-0.15,9.45,-3.68,-2.28,1,0,1,1
116,1561.88,1562.08,-0.35,-0.15,10.08,-4.53,-1.81,1,0,1,1
117,1561.88,1562.08,-0.35,-0.15,6.76,-2.16,-1.57,1,0,1,1
118,1561.88,1562.06,-0.36,-0.15,18.46,-4.86,-1.96,1,0,1,1
119,1561.88,1562.06,-0.37,-0.16,12.05,-2.93,-3.1,1,0,1,1
120,1561.88,1562.11,-0.35,-0.16,16.12,-2.9,-5.73,1,0,1,1
121,1561.88,1562.13,-0.35,-0.17,8.81,-0.85,-5.31,1,0,1,1
122,1561.88,1562.09,-0.38,-0.18,3.33,-0.06,-4.63,1,0,1,1
123,1561.88,1562.13,-0.38,-0.19,4.52,0.38,-6.74,1,0,1,1
124,1561.88,1562.22,-0.35,-0.19,5.17,1.32,-7.04,1,0,1,1
125,1561.88,1562.28,-0.33,-0.2,7.14,3.35,-6.55,1,0,1,1
126,1561.88,1562.29,-0.33,-0.2,3.9,5.94,-3.96,1,0,1,1
127,1561.88,1562.52,-0.21,-0.17,3.63,5.93,-3.53,1,0,1,1
128,1561.88,1562.74,-0.1,-0.14,3.29,5.69,-4.43,1,0,1,1
129,1561.88,1562.89,-0.04,-0.13,3.04,6.93,-4.5,1,0,1,1
130,1561.88,1563.06,0.04,-0.12,1.67,7.52,-3.66,1,0,1,1
131,1561.88,1563.2,0.1,-0.1,2.24,9.14,-2.1,1,0,1,1
132,1561.88,1563.35,0.17,-0.08,0.59,9.11,-1.79,1,0,1,1
133,1561.88,1563.47,0.21,-0.07,0.24,9.6,-1.03,1,0,1,1
134,1561.88,1563.53,0.23,-0.06,-0.89,9.5,0.09,1,0,1,1
135,1561.88,1563.54,0.22,-0.06,-3.57,9.81,1.08,1,0,1,1
136,1561.88,1563.49,0.18,-0.07,-4.68,8.61,1.31,1,0,1,1
137,1561.88,1563.46,0.15,-0.07,-5.19,8.47,1.94,1,0,1,1
138,1561.88,1563.43,0.13,-0.07,-6.03,7.84,2.15,1,0,1,1
139,1561.88,1563.39,0.09,-0.07,-5.65,7.11,1.84,1,0,1,1
140,1561.88,1563.35,0.06,-0.08,-4.93,6.41,0.76,1,0,1,1
141,1561.88,1563.35,0.06,-0.07,-6.39,6.45,1,1,0,1,1
142,1561.88,1563.32,0.03,-0.08,-6.18,6.5,0.21,1,0,1,1
143,1561.88,1563.25,-0.02,-0.09,-5.49,7.45,0.17,1,0,1,1
144,1561.88,1563.21,-0.05,-0.09,-5.85,7.3,0.53,1,0,1,1
145,1561.88,1563.08,-0.13,-0.11,-5.68,7.03,0.52,1,0,1,1
146,1561.88,1563.11,-0.11,-0.1,-5.81,6.74,0.36,1,0,1,1
147,1561.88,1563.05,-0.15,-0.11,-5.93,6.62,0.23,1,0,1,1
148,1561.88,1563.05,-0.15,-0.1,-6.65,7.45,0.89,1,0,1,1
149,1561.88,1563.06,-0.14,-0.1,-5.86,6.8,0.16,1,0,1,1
150,1561.88,1563.06,-0.14,-0.1,-6.08,6.9,0.28,1,0,1,1
151,1561.88,1563.07,-0.14,-0.09,-6.26,7.17,0.93,1,0,1,1
152,1561.88,1563.06,-0.14,-0.08,-6.45,6.89,1.09,1,0,1,1
153,1561.88,1563.05,-0.14,-0.08,-6.3,6.21,0.72,1,0,1,1
154,1561.88,1563.02,-0.15,-0.08,-6.43,6.44,0.55,1,0,1,1
155,1561.88,1563.03,-0.14,-0.07,-6.35,6.7,0.57,1,0,1,1
156,1561.88,1563.06,-0.12,-0.07,-6.27,6.82,0.43,1,0,1,1
157,1561.88,1563.05,-0.13,-0.07,-6.52,6.41,0.15,1,0,1,1
158,1561.88,1563.09,-0.1,-0.06,-6.2,6.32,0.23,1,0,1,1
159,1561.88,1563.07,-0.11,-0.06,-6.21,6.39,0.47,1,0,1,1
160,1561.88,1563.09,-0.1,-0.05,-5.27,6.57,0.39,1,0,1,1
161,1561.88,1563.09,-0.1,-0.05,-4.34,6.68,0.58,1,0,1,1
162,1561.88,1563.02,-0.13,-0.05,-3.67,6.04,1.86,1,0,1,1
163,1561.88,1563.07,-0.08,-0.02,-3.21,7.16,4.6,1,0,1,1
164,1561.88,1563.08,-0.05,0,-1.67,8.49,6.23,1,0,1,1
165,1561.88,1563.09,-0.02,0.02,-1.43,8.29,7.22,1,0,1,1
166,1561.88,1563.11,0.02,0.05,-0.24,7.87,7.24,1,0,1,1
167,1561.88,1563.09,0.03,0.06,0.71,6.69,6.01,1,0,1,1
168,1561.88,1563.14,0.08,0.09,0.81,5.72,6.26,1,0,1,1
169,1561.88,1563.14,0.11,0.11,0.46,6.59,7.61,1,0,1,1
170,1561.88,1563.13,0.13,0.13,1.01,6.69,7.79,1,0,1,1
171,1561.88,1563.12,0.15,0.15,-0.12,5.7,7.62,1,0,1,1
172,1561.88,1563.18,0.22,0.18,1.58,4.33,7.4,1,0,1,1
173,1561.88,1563.22,0.27,0.21,-0.38,5.34,9.17,1,0,1,1
174,1561.88,1563.22,0.3,0.22,2.72,0.64,6.68,1,0,1,1
175,1561.88,1563.28,0.37,0.25,6.28,5.9,8.61,1,0,1,1
176,1561.88,1563.38,0.45,0.28,5.87,2.76,7.3,1,0,1,1
177,1561.88,1563.45,0.52,0.31,3.53,2.61,8.32,1,0,1,1
178,1561.88,1563.49,0.57,0.34,3.94,3.47,9.11,1,0,1,1
179,1561.88,1563.51,0.6,0.35,2.97,-4.66,5.32,1,0,1,1
180,1561.88,1563.55,0.65,0.37,6.82,0.78,9.61,1,0,1,1
181,1561.88,1563.84,0.83,0.42,6.44,-3.06,6.22,1,0,1,1
182,1561.88,1564.11,0.99,0.47,7.09,-4.01,4.95,1,0,1,1
183,1561.88,1564.35,1.12,0.5,5.15,-6.76,2.97,1,0,1,1
184,1561.88,1564.56,1.23,0.51,4.99,-7.71,1.82,1,0,1,1
185,1561.88,1564.71,1.3,0.52,5.44,-7.94,2.17,1,0,1,1
186,1561.88,1564.85,1.36,0.53,3.04,-8.92,2.28,1,0,1,1
187,1561.88,1564.97,1.41,0.53,4.66,-8.57,2.5,1,0,1,1
188,1561.88,1565.08,1.44,0.53,3.78,-9.05,1.91,1,0,1,1
189,1561.88,1565.19,1.48,0.53,4.1,-9.27,1.52,1,0,1,1
190,1561.88,1565.33,1.53,0.53,4.63,-9.5,0.72,1,0,1,1
191,1561.88,1565.42,1.53,0.51,4.42,-8.72,0.01,1,0,1,1
192,1561.88,1565.42,1.49,0.48,5.37,-9.36,-0.85,1,0,1,1
193,1561.88,1565.41,1.44,0.45,5.41,-8.27,-1.58,1,0,1,1
194,1561.88,1565.31,1.34,0.41,5.26,-8.28,-1.41,1,0,1,1
195,1561.88,1565.3,1.29,0.38,6.85,-8.04,-2.04,1,0,1,1
196,1561.88,1565.33,1.25,0.35,6.6,-7.43,-1.75,1,0,1,1
197,1561.88,1565.36,1.23,0.33,6.29,-7.82,-1.63,1,0,1,1
198,1561.88,1565.34,1.17,0.3,6.6,-8.33,-1.81,1,0,1,1
199,1561.88,1565.34,1.12,0.28,6.56,-7.86,-1.89,1,0,1,1
200,1561.88,1565.35,1.09,0.26,5.69,-7.65,-2.04,1,0,1,1
201,1561.88,1565.35,1.04,0.23,5.95,-7.67,-1.86,1,0,1,1
202,1561.88,1565.37,1,0.21,6.93,-8.4,-1.99,1,0,1,1
203,1561.88,1565.38,0.96,0.19,6.92,-7.4,-2.7,1,0,1,1
204,1561.88,1565.43,0.94,0.17,7.04,-7,-2.36,1,0,1,1
205,1561.88,1565.44,0.9,0.15,6.59,-7.47,-3.07,1,0,1,1
206,1561.88,1565.42,0.85,0.12,6.1,-8.14,-2.67,1,0,1,1
207,1561.88,1565.38,0.77,0.09,5.98,-7.95,-3.11,1,0,1,1
208,1561.88,1565.35,0.71,0.07,5.96,-7.82,-3.19,1,0,1,1
209,1561.88,1565.37,0.68,0.05,6.24,-7.62,-2.78,1,0,1,1
210,1561.88,1565.34,0.62,0.03,6.21,-7.75,-2.7,1,0,1,1
211,1561.88,1565.28,0.54,0,6.65,-7.69,-2.77,1,0,1,1
212,1561.88,1565.23,0.47,-0.03,6.6,-7.53,-2.84,1,0,1,1
213,1561.88,1565.13,0.38,-0.06,6.75,-7.15,-2.98,1,0,1,1
214,1561.88,1565.13,0.34,-0.07,6.88,-8.31,-3.02,1,0,1,1
215,1561.88,1565.08,0.27,-0.1,6.67,-7.75,-3.02,1,0,1,1
216,1561.88,1565.08,0.24,-0.11,6.56,-7.54,-3.21,1,0,1,1
217,1561.88,1565.05,0.19,-0.13,6.36,-7.4,-3.08,1,0,1,1
218,1561.88,1564.99,0.12,-0.15,6.6,-7.22,-3.4,1,0,1,1
219,1561.88,1564.99,0.09,-0.16,6.36,-7.17,-3.55,1,0,1,1
220,1561.88,1564.97,0.05,-0.18,6.59,-7.62,-3.76,1,0,1,1
221,1561.88,1564.89,-0.03,-0.2,6.22,-7.67,-3.46,1,0,1,1
222,1561.88,1564.81,-0.1,-0.22,6.45,-7.06,-3.6,1,0,1,1
223,1561.88,1564.74,-0.17,-0.24,6.32,-8.03,-3.52,1,0,1,1
224,1561.88,1564.7,-0.22,-0.25,6.14,-7.92,-3.39,1,0,1,1
225,1561.88,1564.67,-0.26,-0.26,6.22,-7.43,-3.19,1,0,1,1
226,1561.88,1564.64,-0.29,-0.27,6.12,-7.45,-3.02,1,0,1,1
227,1561.88,1564.57,-0.35,-0.29,6.54,-7.43,-2.97,1,0,1,1
228,1561.88,1564.52,-0.39,-0.3,6.3,-7.58,-2.93,1,0,1,1
229,1561.88,1564.39,-0.48,-0.32,6.57,-7.08,-3,1,0,1,1
230,1561.88,1564.29,-0.55,-0.33,6.14,-7.18,-2.46,1,0,1,1
231,1561.88,1564.24,-0.59,-0.34,6.53,-7.81,-2.58,1,0,1,1
232,1561.88,1564.21,-0.61,-0.34,6.39,-7.65,-2.51,1,0,1,1
233,1561.88,1564.2,-0.62,-0.34,6.91,-7.37,-2.76,1,0,1,1
234,1561.88,1564.17,-0.64,-0.34,6.39,-7.69,-2.66,1,0,1,1
235,1561.88,1564.13,-0.67,-0.34,6.17,-7.59,-2.27,1,0,1,1
236,1561.88,1564.06,-0.7,-0.35,5.89,-8,-2.3,1,0,1,1
237,1561.88,1563.98,-0.75,-0.36,5.75,-8.44,-2.36,1,0,1,1
238,1561.88,1563.9,-0.79,-0.36,4.63,-8.34,-1.16,1,0,1,1
239,1561.88,1563.86,-0.8,-0.35,4.97,-9.15,-0.67,1,0,1,1
240,1561.88,1563.86,-0.79,-0.34,5.33,-9.25,-0.93,1,0,1,1
241,1561.88,1563.87,-0.77,-0.33,5.32,-8.87,-0.87,1,0,1,1
242,1561.88,1563.9,-0.74,-0.31,5.27,-8.66,-0.83,1,0,1,1
243,1561.88,1563.9,-0.73,-0.3,5.05,-8.8,-0.67,1,0,1,1
244,1561.88,1563.88,-0.73,-0.29,5.01,-9.54,-0.81,1,0,1,1
245,1561.88,1563.81,-0.76,-0.3,4.57,-8.77,-1.12,1,0,1,1
246,1561.88,1563.77,-0.77,-0.29,4.57,-9.08,-1.83,1,0,1,1
247,1561.88,1563.72,-0.79,-0.29,4.31,-9.83,-1.42,1,0,1,1
248,1561.88,1563.69,-0.79,-0.29,4.6,-8.75,-1.5,1,0,1,1
249,1561.88,1563.68,-0.79,-0.28,3.89,-9.15,-2.05,1,0,1,1
250,1561.88,1563.69,-0.76,-0.27,4.35,-8.87,-2.21,1,0,1,1
251,1561.88,1563.64,-0.79,-0.28,4.03,-9.04,-2.58,1,0,1,1
252,1561.88,1563.58,-0.81,-0.28,3.24,-9.22,-2.61,1,0,1,1
253,1561.88,1563.53,-0.82,-0.28,3.95,-9.49,-2.69,1,0,1,1
254,1561.88,1563.49,-0.83,-0.28,3.58,-9.45,-2.99,1,0,1,1
255,1561.88,1563.48,-0.83,-0.28,3.42,-9.19,-2.96,1,0,1,1
256,1561.88,1563.46,-0.83,-0.28,2.99,-9.41,-3.3,1,0,1,1
257,1561.88,1563.36,-0.88,-0.29,2.67,-9.34,-3.81,1,0,1,1
258,1561.88,1563.36,-0.86,-0.29,2.83,-9.01,-4.07,1,0,1,1
259,1561.88,1563.3,-0.89,-0.3,3.05,-9.28,-3.57,1,0,1,1
260,1561.88,1563.18,-0.95,-0.31,3.16,-9.01,-4.07,1,0,1,1
261,1561.88,1563.11,-0.97,-0.32,2.96,-9.12,-3.87,1,0,1,1
262,1561.88,1563.1,-0.96,-0.32,3.19,-9.61,-3.96,1,0,1,1
263,1561.88,1563.06,-0.97,-0.32,3.73,-8.68,-4.16,1,0,1,1
264,1561.88,1563.01,-0.99,-0.32,3.32,-8.89,-4.28,1,0,1,1
265,1561.88,1562.89,-1.05,-0.34,2.69,-8.25,-5.02,1,0,1,1
266,1561.88,1562.84,-1.06,-0.34,4.06,-8.89,-5.12,1,0,1,1
267,1561.88,1562.79,-1.08,-0.35,4.58,-8.6,-4.67,1,0,1,1
268,1561.88,1562.74,-1.09,-0.36,4.27,-7.88,-5.16,1,0,1,1
269,1561.88,1562.74,-1.08,-0.35,4.84,-8.54,-4.17,1,0,1,1
270,1561.88,1562.74,-1.06,-0.34,4.87,-8.2,-4.16,1,0,1,1
271,1561.88,1562.79,-1.02,-0.33,4.6,-7.68,-4.18,1,0,1,1
272,1561.88,1562.82,-0.98,-0.32,5.35,-8.56,-4.34,1,0,1,1
273,1561.88,1562.84,-0.96,-0.31,4.95,-8.03,-4.12,1,0,1,1
274,1561.88,1562.88,-0.92,-0.3,4.92,-8.33,-3.73,1,0,1,1
275,1561.88,1562.88,-0.9,-0.3,5.64,-8.34,-3.36,1,0,1,1
276,1561.88,1562.91,-0.88,-0.29,5.17,-7.53,-3.42,1,0,1,1
277,1561.88,1562.97,-0.83,-0.28,5.19,-8.65,-3.66,1,0,1,1
278,1561.88,1563.02,-0.79,-0.26,4.88,-8,-3.74,1,0,1,1
279,1561.88,1563.09,-0.74,-0.25,4.71,-8.49,-3.57,1,0,1,1
280,1561.88,1563.13,-0.71,-0.24,4.98,-8.26,-3.75,1,0,1,1
281,1561.88,1563.18,-0.67,-0.23,4.97,-8.56,-3.44,1,0,1,1
282,1561.88,1563.23,-0.64,-0.23,4.9,-8.57,-3.33,1,0,1,1
283,1561.88,1563.24,-0.63,-0.22,5.01,-8.43,-3.17,1,0,1,1
284,1561.88,1563.26,-0.61,-0.22,5.19,-8.73,-3.07,1,0,1,1
285,1561.88,1563.34,-0.56,-0.21,5.03,-8.59,-3.27,1,0,1,1
286,1561.88,1563.43,-0.5,-0.19,4.82,-8.61,-3.5,1,0,1,1
287,1561.88,1563.44,-0.5,-0.19,4.94,-8.24,-3.33,1,0,1,1
288,1561.88,1563.47,-0.48,-0.19,5.3,-8.73,-3.21,1,0,1,1
289,1561.88,1563.5,-0.46,-0.19,5.17,-8.65,-3.05,1,0,1,1
290,1561.88,1563.56,-0.43,-0.18,5.14,-8.67,-3.41,1,0,1,1
291,1561.88,1563.58,-0.42,-0.18,4.94,-8.59,-3.26,1,0,1,1
292,1561.88,1563.57,-0.43,-0.18,4.98,-8.51,-3.31,1,0,1,1
293,1561.88,1563.6,-0.41,-0.18,5.26,-8.49,-3.36,1,0,1,1
294,1561.88,1563.67,-0.38,-0.17,4.96,-8.12,-3.37,1,0,1,1
295,1561.88,1563.65,-0.39,-0.18,4.86,-8.99,-3.38,1,0,1,1
296,1561.88,1563.66,-0.39,-0.18,5.03,-8.26,-3.32,1,0,1,1
297,1561.88,1563.66,-0.4,-0.18,5.16,-8.44,-3.46,1,0,1,1
298,1561.88,1563.68,-0.39,-0.18,5.36,-8.31,-3.22,1,0,1,1
299,1561.88,1563.68,-0.39,-0.19,5.05,-8.59,-2.99,1,0,1,1
300,1561.88,1563.68,-0.4,-0.19,5.48,-8.88,-2.93,1,0,1,1
301,1561.88,1563.62,-0.44,-0.2,5.17,-8.25,-3.41,1,0,1,1
302,1561.88,1563.54,-0.49,-0.22,4.99,-9.25,-3.14,1,0,1,1
303,1561.88,1563.51,-0.5,-0.22,5.37,-9.54,-2.98,1,0,1,1
304,1561.88,1563.54,-0.49,-0.21,5.32,-8.65,-2.43,1,0,1,1
305,1561.88,1563.57,-0.47,-0.21,5.25,-8.2,-1.63,1,0,1,1
306,1561.88,1563.65,-0.41,-0.19,4.81,-9.11,-0.07,1,0,1,1
307,1561.88,1563.69,-0.38,-0.17,3.67,-8.69,0.65,1,0,1,1
308,1561.88,1563.69,-0.37,-0.16,3.45,-9.4,0.75,1,0,1,1
309,1561.88,1563.73,-0.34,-0.15,3.79,-9.27,0.63,1,0,1,1
310,1561.88,1563.77,-0.31,-0.13,3.28,-9.52,0.58,1,0,1,1
311,1561.88,1563.79,-0.29,-0.12,3.39,-9.62,1.02,1,0,1,1
312,1561.88,1563.83,-0.25,-0.1,3.27,-9.44,2.25,1,0,1,1
313,1561.88,1563.93,-0.18,-0.07,2.73,-9.35,3.5,1,0,1,1
314,1561.88,1563.98,-0.13,-0.05,2.23,-8.73,4.21,1,0,1,1
315,1561.88,1564.1,-0.04,-0.01,2.67,-8.46,4.02,1,0,1,1
316,1561.88,1564.18,0.02,0.01,3.18,-8.3,4.2,1,0,1,1
317,1561.88,1564.32,0.11,0.05,2.95,-8.55,4.47,1,0,1,1
318,1561.88,1564.39,0.16,0.07,3.24,-8.38,4.45,1,0,1,1
319,1561.88,1564.46,0.21,0.09,3.03,-8.6,4.28,1,0,1,1
320,1561.88,1564.57,0.29,0.12,2.95,-8.32,4.29,1,0,1,1
321,1561.88,1564.64,0.33,0.14,3.11,-8.54,4.28,1,0,1,1
322,1561.88,1564.69,0.37,0.15,3.16,-8.72,3.72,1,0,1,1
323,1561.88,1564.77,0.42,0.17,3.94,-9.09,3.47,1,0,1,1
324,1561.88,1564.9,0.49,0.19,3.73,-8.98,2.44,1,0,1,1
325,1561.88,1564.96,0.52,0.19,5.48,-7.59,2.03,1,0,1,1
326,1561.88,1565.03,0.55,0.2,5.87,-8.27,1.74,1,0,1,1
327,1561.88,1565.08,0.57,0.2,6.28,-8.6,1.62,1,0,1,1
328,1561.88,1565.15,0.6,0.21,6.02,-8.04,0.86,1,0,1,1
329,1561.88,1565.2,0.61,0.2,6.1,-8.38,0.21,1,0,1,1
330,1561.88,1565.24,0.62,0.2,7.02,-7.5,-0.79,1,0,1,1
331,1561.88,1565.27,0.62,0.2,6.62,-6.94,0.8,1,0,1,1
332,1561.88,1565.25,0.6,0.19,7.13,-7.05,1.42,1,0,1,1
333,1561.88,1565.15,0.53,0.16,7.24,-7.13,0.92,1,0,1,1
334,1561.88,1564.97,0.41,0.13,8.15,-7.29,0.32,1,0,1,1
335,1561.88,1564.85,0.33,0.1,7.74,-7.18,0.46,1,0,1,1
336,1561.88,1564.66,0.21,0.07,8.04,-7.84,0.17,1,0,1,1
337,1561.88,1564.5,0.11,0.04,8.2,-5.55,0.12,1,0,1,1
338,1561.88,1564.37,0.04,0.02,8.66,-3.87,0.98,1,0,1,1
339,1561.88,1564.26,-0.02,0.01,9.09,-3.29,2.71,1,0,1,1
340,1561.88,1564.09,-0.11,-0.01,8.07,-4.24,2.48,1,0,1,1
341,1561.88,1563.94,-0.18,-0.02,9.33,-3.97,2.74,1,0,1,1
342,1561.88,1563.86,-0.2,-0.02,9.68,-3.42,3.62,1,0,1,1
343,1561.88,1563.82,-0.2,-0.01,9,-2.65,4.2,1,0,1,1
344,1561.88,1563.75,-0.22,0,7.77,-1.22,5.37,1,0,1,1
345,1561.88,1563.66,-0.23,0.01,8.04,1.29,6.9,1,0,1,1
346,1561.88,1563.6,-0.23,0.03,7.17,0.99,6.88,1,0,1,1
347,1561.88,1563.51,-0.24,0.04,7.35,0.29,7.38,1,0,1,1
348,1561.88,1563.44,-0.24,0.05,6.37,0.61,7.04,1,0,1,1
349,1561.88,1563.41,-0.22,0.07,5.44,1.09,7.32,1,0,1,1
350,1561.88,1563.34,-0.21,0.09,6.23,1.08,7.75,1,0,1,1
351,1561.88,1563.3,-0.19,0.11,6.36,1.14,7.87,1,0,1,1
352,1561.88,1563.26,-0.17,0.13,5.56,0.59,7.91,1,0,1,1
353,1561.88,1563.24,-0.13,0.15,6.64,0.52,7.77,1,0,1,1
354,1561.88,1563.25,-0.08,0.18,4.85,0.43,7.65,1,0,1,1
355,1561.88,1563.25,-0.03,0.2,6.17,0.79,7.52,1,0,1,1
356,1561.88,1563.24,0,0.22,6.57,1.26,7.29,1,0,1,1
357,1561.88,1563.25,0.05,0.25,5.98,0.48,6.99,1,0,1,1
358,1561.88,1563.25,0.09,0.27,5.72,0.88,7.17,1,0,1,1
359,1561.88,1563.27,0.15,0.29,6.28,0.95,7.34,1,0,1,1
360,1561.88,1563.34,0.23,0.32,6.53,1.06,7.89,1,0,1,1
361,1561.88,1563.37,0.29,0.34,6.41,1.04,8.06,1,0,1,1
362,1561.88,1563.38,0.34,0.36,6.49,0.55,7.72,1,0,1,1
363,1561.88,1563.4,0.39,0.38,5.84,0.35,7.15,1,0,1,1
364,1561.88,1563.4,0.42,0.4,6.46,0.32,7.51,1,0,1,1
365,1561.88,1563.42,0.47,0.42,6.32,0.22,7.87,1,0,1,1
366,1561.88,1563.46,0.53,0.44,6.07,0.84,8.56,1,0,1,1
367,1561.88,1563.53,0.61,0.47,6.98,1.45,8.68,1,0,1,1
368,1561.88,1563.56,0.66,0.48,6.55,1.93,7.14,1,0,1,1
369,1561.88,1563.65,0.74,0.5,5.5,2.44,5.89,1,0,1,1
370,1561.88,1563.71,0.79,0.52,4.84,3.99,6.08,1,0,1,1
371,1561.88,1563.75,0.84,0.53,4.72,5.6,6.4,1,0,1,1
372,1561.88,1563.83,0.9,0.54,3.97,5.45,5.45,1,0,1,1
373,1561.88,1563.89,0.95,0.55,4.5,6.41,4.97,1,0,1,1
374,1561.88,1563.88,0.95,0.54,5.56,6.75,4.32,1,0,1,1
375,1561.88,1563.92,0.98,0.54,5.04,6.68,4.02,1,0,1,1
376,1561.88,1563.96,1.01,0.54,5.17,6.86,3.99,1,0,1,1
377,1561.88,1563.96,1.02,0.54,5.74,7.5,4.21,1,0,1,1
378,1561.88,1563.94,1.01,0.53,4.89,6.93,4.28,1,0,1,1
379,1561.88,1563.96,1.03,0.53,3.96,7.02,4.49,1,0,1,1
380,1561.88,1563.97,1.04,0.53,2.87,6.95,5.07,1,0,1,1
381,1561.88,1563.99,1.05,0.53,4.29,7.07,5.22,1,0,1,1
382,1561.88,1564.01,1.07,0.53,3.5,6.92,5.49,1,0,1,1
383,1561.88,1564.02,1.08,0.53,3.12,6.79,5.79,1,0,1,1
384,1561.88,1564.02,1.09,0.53,3.66,6.79,5.77,1,0,1,1
385,1561.88,1564.04,1.1,0.53,4.79,6.62,5.93,1,0,1,1
386,1561.88,1564.06,1.12,0.53,3.19,6.53,5.2,1,0,1,1
387,1561.88,1564.09,1.13,0.53,3.85,7.33,5.66,1,0,1,1
388,1561.88,1564.07,1.12,0.53,3.9,7.13,5.62,1,0,1,1
389,1561.88,1564.1,1.15,0.53,3.75,6.01,5.6,1,0,1,1
390,1561.88,1564.09,1.14,0.52,4.05,7.01,5.33,1,0,1,1
391,1561.88,1564.12,1.16,0.52,4.2,6.6,5.34,1,0,1,1
392,1561.88,1564.19,1.2,0.53,4.7,6.02,6.28,1,0,1,1
393,1561.88,1564.19,1.19,0.53,4.46,5.93,5.97,1,0,1,1
394,1561.88,1564.22,1.21,0.53,3.92,6.34,5.06,1,0,1,1
395,1561.88,1564.22,1.2,0.52,5.48,6.55,4.34,1,0,1,1
396,1561.88,1564.23,1.2,0.52,4.49,7.34,5.31,1,0,1,1
397,1561.88,1564.24,1.2,0.51,5.73,6.31,4.93,1,0,1,1
398,1561.88,1564.27,1.21,0.51,5.7,6.3,4.24,1,0,1,1
399,1561.88,1564.27,1.2,0.5,5.58,6.22,4.41,1,0,1,1
400,1561.88,1564.3,1.21,0.5,5.4,7.01,4.64,1,0,1,1
401,1561.88,1564.33,1.22,0.5,5.83,6.8,4.61,1,0,1,1
402,1561.88,1564.33,1.21,0.49,5.34,6.62,4.02,1,0,1,1
403,1561.88,1564.37,1.21,0.48,6.4,4.99,3.22,1,0,1,1
404,1561.88,1564.39,1.22,0.48,5.56,6.8,6,1,0,1,1
405,1561.88,1564.43,1.24,0.49,6.7,5.23,6.07,1,0,1,1
406,1561.88,1564.48,1.25,0.49,5.98,5.16,5.14,1,0,1,1
407,1561.88,1564.46,1.24,0.48,5.99,5.24,5.45,1,0,1,1
408,1561.88,1564.51,1.25,0.48,6.18,4.76,5.32,1,0,1,1
409,1561.88,1564.48,1.22,0.47,6.75,5.29,4.78,1,0,1,1
410,1561.88,1564.47,1.2,0.46,6.69,4.54,4.49,1,0,1,1
411,1561.88,1564.44,1.18,0.45,7.39,4.58,4.91,1,0,1,1
412,1561.88,1564.43,1.16,0.45,7.25,6.02,4.96,1,0,1,1
413,1561.88,1564.39,1.13,0.43,6.25,5.86,4.33,1,0,1,1
414,1561.88,1564.37,1.1,0.42,7.58,5.88,4.25,1,0,1,1
415,1561.88,1564.37,1.1,0.42,4.71,7.3,5.8,1,0,1,1
416,1561.88,1564.35,1.08,0.42,3.81,6.8,4.52,1,0,1,1
417,1561.88,1564.32,1.05,0.41,0.76,7.56,4.77,1,0,1,1
418,1561.88,1564.33,1.05,0.4,0.78,7.64,4.73,1,0,1,1
419,1561.88,1564.32,1.03,0.4,-0.29,7.85,3.94,1,0,1,1
420,1561.88,1564.29,1,0.38,0.06,8.14,3.73,1,0,1,1
421,1561.88,1564.25,0.97,0.37,0.47,8.26,3.26,1,0,1,1
422,1561.88,1564.18,0.92,0.36,0.34,8.32,4,1,0,1,1
423,1561.88,1564.17,0.91,0.35,0.69,8.76,4.75,1,0,1,1
424,1561.88,1564.1,0.86,0.34,1.23,7.9,4.84,1,0,1,1
425,1561.88,1564.06,0.84,0.34,0.17,6.81,5.04,1,0,1,1
426,1561.88,1564.06,0.83,0.34,0.14,8.58,4.88,1,0,1,1
427,1561.88,1564.06,0.83,0.34,1.83,7.78,5.49,1,0,1,1
428,1561.88,1564.07,0.84,0.34,0.79,7.19,5.91,1,0,1,1
429,1561.88,1564.08,0.85,0.35,1.62,7.74,5.65,1,0,1,1
430,1561.88,1564.04,0.83,0.34,0.65,7.58,5.58,1,0,1,1
431,1561.88,1564.07,0.85,0.35,-0.17,7.4,5.46,1,0,1,1
432,1561.88,1564.09,0.86,0.36,-0.25,7.41,5.27,1,0,1,1
433,1561.88,1564.13,0.88,0.36,-0.48,7.35,5.28,1,0,1,1
434,1561.88,1564.14,0.88,0.36,-0.29,7.7,5.33,1,0,1,1
435,1561.88,1564.19,0.92,0.37,0.28,7.53,5.35,1,0,1,1
436,1561.88,1564.23,0.94,0.38,0.07,7.45,5.66,1,0,1,1
437,1561.88,1564.2,0.92,0.38,0.48,7.16,5.87,1,0,1,1
438,1561.88,1564.2,0.92,0.38,0.62,7.29,5.96,1,0,1,1
439,1561.88,1564.18,0.91,0.38,0.85,7.08,5.91,1,0,1,1
440,1561.88,1564.19,0.92,0.38,0.9,7,6.2,1,0,1,1
441,1561.88,1564.19,0.92,0.39,1.11,7.01,6.37,1,0,1,1
442,1561.88,1564.21,0.93,0.39,0.94,6.89,6.32,1,0,1,1
443,1561.88,1564.17,0.91,0.39,1.07,6.9,6.09,1,0,1,1
444,1561.88,1564.15,0.91,0.39,0.99,6.98,5.88,1,0,1,1
445,1561.88,1564.12,0.89,0.39,1.12,7.09,5.95,1,0,1,1
446,1561.88,1564.15,0.91,0.39,1.07,7.01,6.12,1,0,1,1
447,1561.88,1564.14,0.91,0.4,1.07,7.14,6.2,1,0,1,1
448,1561.88,1564.16,0.92,0.4,1.23,7.02,6.07,1,0,1,1
449,1561.88,1564.19,0.94,0.41,1.21,6.98,6.02,1,0,1,1
450,1561.88,1564.21,0.96,0.41,1.17,6.89,6.01,1,0,1,1
451,1561.88,1564.26,0.99,0.42,1.21,7.05,6.21,1,0,1,1
452,1561.88,1564.21,0.96,0.42,1.63,6.35,5.93,1,0,1,1
453,1561.88,1564.19,0.95,0.42,1.86,7.28,6.16,1,0,1,1
454,1561.88,1564.2,0.96,0.42,3.28,7.44,6.27,1,0,1,1
455,1561.88,1564.26,1,0.43,1.99,6.93,6.35,1,0,1,1
456,1561.88,1564.22,0.98,0.43,1.41,6.55,5.94,1,0,1,1
457,1561.88,1564.21,0.97,0.43,1.82,6.81,5.72,1,0,1,1
458,1561.88,1564.24,0.99,0.43,1.84,6.9,6.03,1,0,1,1
459,1561.88,1564.22,0.98,0.43,1.81,6.79,6.32,1,0,1,1
460,1561.88,1564.22,0.99,0.43,2.08,6.69,6.27,1,0,1,1
461,1561.88,1564.21,0.98,0.43,1.98,6.77,6.28,1,0,1,1
462,1561.88,1564.25,1.01,0.44,1.9,7.04,6.17,1,0,1,1
463,1561.88,1564.25,1.01,0.44,1.78,6.92,6.05,1,0,1,1
464,1561.88,1564.16,0.96,0.43,2.13,6.8,5.97,1,0,1,1
465,1561.88,1564.13,0.94,0.42,2.12,6.77,6.31,1,0,1,1
466,1561.88,1564.09,0.93,0.42,2.01,6.34,6.28,1,0,1,1
467,1561.88,1564.07,0.92,0.42,2.31,6.68,6.29,1,0,1,1
468,1561.88,1564.08,0.94,0.43,2.15,6.86,6.48,1,0,1,1
469,1561.88,1564.12,0.97,0.44,2.45,6.63,6.31,1,0,1,1
470,1561.88,1564.13,0.97,0.44,2.62,6.24,6.28,1,0,1,1
471,1561.88,1564.12,0.97,0.44,2.57,6.17,6.43,1,0,1,1
472,1561.88,1564.09,0.96,0.44,2.48,6.39,6.56,1,0,1,1
473,1561.88,1564.1,0.97,0.44,2.52,6.47,6.52,1,0,1,1
474,1561.88,1564.11,0.99,0.45,2.52,6.46,6.45,1,0,1,1
475,1561.88,1564.07,0.97,0.44,2.6,6.42,6.44,1,0,1,1
476,1561.88,1564.07,0.97,0.45,2.63,6.32,6.39,1,0,1,1
477,1561.88,1564.05,0.97,0.45,2.65,6.16,6.42,1,0,1,1
478,1561.88,1564.09,0.99,0.45,2.72,6.33,6.59,1,0,1,1
479,1561.88,1564.1,1,0.46,2.66,6.2,6.53,1,0,1,1
480,1561.88,1564.08,1,0.46,2.77,6.28,6.56,1,0,1,1
481,1561.88,1564.07,1,0.46,2.79,6.32,6.49,1,0,1,1
482,1561.88,1564.04,0.99,0.46,2.58,6.34,6.4,1,0,1,1
483,1561.88,1564.02,0.98,0.45,2.73,6.65,6.26,1,0,1,1
484,1561.88,1564.06,1.01,0.46,2.8,6.46,6.25,1,0,1,1
485,1561.88,1564.1,1.04,0.47,2.81,6.3,6.42,1,0,1,1
486,1561.88,1564.15,1.07,0.48,2.71,6.3,6.51,1,0,1,1
487,1561.88,1564.19,1.1,0.49,2.69,6.32,6.34,1,0,1,1
488,1561.88,1564.22,1.11,0.49,2.66,6.68,6.44,1,0,1,1
489,1561.88,1564.15,1.07,0.48,2.6,6.5,6.25,1,0,1,1
490,1561.88,1564.12,1.06,0.48,2.33,6.32,5.96,1,0,1,1
491,1561.88,1564.12,1.06,0.48,2.43,6.71,6.22,1,0,1,1
492,1561.88,1564.11,1.06,0.47,2.49,6.65,6.4,1,0,1,1
493,1561.88,1564.08,1.04,0.47,2.48,6.54,6.24,1,0,1,1
494,1561.88,1564.08,1.04,0.47,2.54,6.64,6.15,1,0,1,1
495,1561.88,1564.08,1.05,0.47,2.45,6.72,6.13,1,0,1,1
496,1561.88,1564.1,1.06,0.48,2.54,6.8,6.05,1,0,1,1
497,1561.88,1564.11,1.07,0.48,2.54,6.73,6.04,1,0,1,1
498,1561.88,1564.13,1.08,0.48,2.49,6.74,6.2,1,0,1,1
499,1561.88,1564.14,1.09,0.48,2.63,6.78,6.11,1,0,1,1
500,1561.88,1564.12,1.08,0.48,2.48,6.64,6.04,1,0,1,1
501,1561.88,1564.11,1.07,0.48,2.49,6.76,6.28,1,0,1,1
502,1561.88,1564.09,1.07,0.47,2.53,6.58,6.22,1,0,1,1
503,1561.88,1564.09,1.07,0.47,2.55,6.58,6.06,1,0,1,1
504,1561.88,1564.03,1.04,0.46,2.59,6.64,6.26,1,0,1,1
505,1561.88,1564.07,1.06,0.47,2.47,6.62,6.28,1,0,1,1
506,1561.88,1564.11,1.08,0.48,2.49,6.7,6.14,1,0,1,1
507,1561.88,1564.16,1.11,0.48,2.39,6.74,6.14,1,0,1,1
508,1561.88,1564.18,1.12,0.49,2.38,6.79,6.14,1,0,1,1
509,1561.88,1564.17,1.12,0.48,2.38,6.79,6.12,1,0,1,1
510,1561.88,1564.16,1.11,0.48,2.41,6.77,6.14,1,0,1,1
511,1561.88,1564.2,1.13,0.49,2.32,6.69,6.08,1,0,1,1
512,1561.88,1564.2,1.13,0.49,2.31,6.85,6.01,1,0,1,1
513,1561.88,1564.2,1.13,0.48,2.38,6.82,6,1,0,1,1
514,1561.88,1564.17,1.11,0.48,2.32,6.81,6.11,1,0,1,1
515,1561.88,1564.12,1.08,0.47,2.37,6.86,6.19,1,0,1,1
516,1561.88,1564.05,1.04,0.46,2.35,6.75,6.08,1,0,1,1
517,1561.88,1564.05,1.05,0.46,2.29,6.76,6.1,1,0,1,1
518,1561.88,1564.01,1.02,0.45,2.28,6.92,6.18,1,0,1,1
519,1561.88,1564.06,1.06,0.46,2.16,6.89,6.11,1,0,1,1
520,1561.88,1563.97,1.01,0.45,2.12,6.79,5.88,1,0,1,1
521,1561.88,1563.98,1.01,0.45,2.05,6.92,5.8,1,0,1,1
522,1561.88,1563.97,1.01,0.45,2.06,7.18,5.96,1,0,1,1
523,1561.88,1564,1.03,0.45,1.89,7.15,5.99,1,0,1,1
524,1561.88,1564,1.03,0.45,1.95,7.07,5.71,1,0,1,1
525,1561.88,1564,1.03,0.45,1.73,7.16,5.68,1,0,1,1
526,1561.88,1563.97,1.01,0.45,1.49,7.32,5.62,1,0,1,1
527,1561.88,1563.94,0.99,0.44,1.53,7.41,5.49,1,0,1,1
528,1561.88,1563.96,1,0.44,1.48,7.3,5.57,1,0,1,1
529,1561.88,1564,1.03,0.45,1.94,7.28,5.66,1,0,1,1
530,1561.88,1564.05,1.06,0.46,1.85,7.13,5.75,1,0,1,1
531,1561.88,1564.07,1.07,0.46,1.72,7.08,5.74,1,0,1,1
532,1561.88,1564.03,1.05,0.45,1.64,7.34,5.88,1,0,1,1
533,1561.88,1564.03,1.05,0.45,1.23,7.6,5.73,1,0,1,1
534,1561.88,1564.09,1.08,0.46,1.35,7.14,5.42,1,0,1,1
535,1561.88,1564.13,1.1,0.46,2.51,7.13,5.42,1,0,1,1
536,1561.88,1564.17,1.12,0.47,2.61,7.2,5.23,1,0,1,1
537,1561.88,1564.22,1.14,0.47,3.64,7.07,5.1,1,0,1,1
538,1561.88,1564.25,1.15,0.47,2.58,8.01,5.23,1,0,1,1
539,1561.88,1564.31,1.18,0.47,3.86,8.36,4.8,1,0,1,1
540,1561.88,1564.37,1.2,0.48,4.89,7.64,4.18,1,0,1,1
541,1561.88,1564.42,1.22,0.48,3.86,6.66,5.07,1,0,1,1
542,1561.88,1564.43,1.22,0.47,3.52,6.04,5.19,1,0,1,1
543,1561.88,1564.47,1.23,0.48,2.16,5.87,5.36,1,0,1,1
544,1561.88,1564.47,1.22,0.47,3.31,7.14,6.09,1,0,1,1
545,1561.88,1564.51,1.24,0.48,4.04,8.49,6.4,1,0,1,1
546,1561.88,1564.54,1.24,0.47,3.35,7.46,3.42,1,0,1,1
547,1561.88,1564.58,1.25,0.47,1.68,8.8,5.31,1,0,1,1
548,1561.88,1564.61,1.25,0.46,4.12,9.03,2.81,1,0,1,1
549,1561.88,1564.56,1.2,0.44,3.12,9.41,2.88,1,0,1,1
550,1561.88,1564.51,1.15,0.42,2.17,7.98,1.76,1,0,1,1
551,1561.88,1564.51,1.12,0.4,2.24,8.63,0.58,1,0,1,1
552,1561.88,1564.48,1.08,0.38,2.73,9.5,-0.49,1,0,1,1
553,1561.88,1564.44,1.02,0.35,4.25,8.81,-0.38,1,0,1,1
554,1561.88,1564.42,0.99,0.34,-1.24,9.35,1.36,1,0,1,1
555,1561.88,1564.41,0.96,0.32,-3.48,7.98,0.9,1,0,1,1
556,1561.88,1564.37,0.91,0.3,-5.02,8.36,0.69,1,0,1,1
557,1561.88,1564.28,0.84,0.27,-4.89,7.32,0.92,1,0,1,1
558,1561.88,1564.26,0.8,0.25,-7.17,7.49,-0.34,1,0,1,1
559,1561.88,1564.24,0.77,0.23,-9.05,7.14,-0.59,1,0,1,1
560,1561.88,1564.17,0.69,0.2,-3.16,4.8,-3.67,1,0,1,1
561,1561.88,1564.09,0.61,0.16,-7.1,5.22,-4.12,1,0,1,1
562,1561.88,1564.02,0.53,0.12,-7.98,2.07,-5.57,1,0,1,1
563,1561.88,1563.98,0.47,0.09,-8.21,1.83,-5.78,1,0,1,1
564,1561.88,1563.87,0.37,0.05,-8.18,-0.96,-6.83,1,0,1,1
565,1561.88,1563.77,0.27,0,-5.61,-0.93,-7.61,1,0,1,1
566,1561.88,1563.69,0.18,-0.04,-6.45,-1.02,-7.17,1,0,1,1
567,1561.88,1563.68,0.14,-0.07,-5.74,-0.85,-7.86,1,0,1,1
568,1561.88,1563.61,0.06,-0.11,-4.88,-0.47,-8.41,1,0,1,1
569,1561.88,1563.53,-0.03,-0.15,-5.03,-1.18,-8.77,1,0,1,1
570,1561.88,1563.52,-0.07,-0.17,-4.8,-1.44,-8.87,1,0,1,1
571,1561.88,1563.52,-0.11,-0.2,-3.76,0.09,-8.69,1,0,1,1
572,1561.88,1563.48,-0.18,-0.23,-3.66,-1.03,-9.07,1,0,1,1
573,1561.88,1563.44,-0.24,-0.26,-3.17,-0.35,-9.15,1,0,1,1
574,1561.88,1563.41,-0.3,-0.29,-3.09,-1.45,-9.85,1,0,1,1
575,1561.88,1563.34,-0.38,-0.32,-3.42,-1.29,-9.68,1,0,1,1
576,1561.88,1563.3,-0.44,-0.35,-2.45,-0.06,-9.42,1,0,1,1
577,1561.88,1563.3,-0.48,-0.37,-2.53,0.21,-10.21,1,0,1,1
578,1561.88,1563.26,-0.54,-0.4,-2.85,1.47,-9.48,1,0,1,1
579,1561.88,1563.23,-0.59,-0.42,-2.36,0.69,-9.79,1,0,1,1
580,1561.88,1563.14,-0.68,-0.46,-3.01,0.8,-9.74,1,0,1,1
581,1561.88,1563.15,-0.71,-0.47,-2.71,0.81,-9.76,1,0,1,1
582,1561.88,1563.1,-0.78,-0.5,-3.1,0.66,-9.77,1,0,1,1
583,1561.88,1563.03,-0.84,-0.52,-2.91,0.75,-9.78,1,0,1,1
584,1561.88,1562.97,-0.91,-0.55,-2.78,0.78,-9.76,1,0,1,1
585,1561.88,1562.94,-0.96,-0.57,-2.65,0.62,-9.75,1,0,1,1
586,1561.88,1562.9,-1.01,-0.58,-2.22,0.8,-9.49,1,0,1,1
587,1561.88,1562.86,-1.06,-0.6,-3.29,1.22,-9.83,1,0,1,1
588,1561.88,1562.82,-1.11,-0.62,-3.23,0.94,-9.72,1,0,1,1
